Time file:	R:\UCL_SSID\SSID_DATABASE\SSID_London\OFF_CamdenTown1_FULL_190502\OFF_CamdenTown1_BIN_190502\CamdenTown1_HDF\13-04_4.hdf
Mark:		13-04_4 (0.00 - 25.00 s)
Filter:	
Analysis:	Speech Interference Level vs. Time (SIL-4; Fast)
Statistic:	Max[13-04_4.{Left,Right}]
Kind:	SpeechInterferenceLevel
Abscissa 1:	Time,s
Channel 1:	Max {Pa},Speech Interference Level,dB(SPL),N/A=n/a ; Avg,arith=57.61; SIL5=62.64; SIL10=61.04; SIL50=56.43; SIL90=54.56; SIL95=54.02 dB(SPL); Min=53.37 dB(SPL) @16.5 s; Max=65.88 dB(SPL) @2.68 s
Comment:
<User Comment>
CT114
<>
SQobold SD recording
S/N 33020299 Name U London FW 1.5/3
Ch1: 104 dB(SPL) ICP
Ch2: 104 dB(SPL) ICP
User Information:
SSID Field Binaural Basic/Comments = Cars passing, building mechanical noise, wind noise
SSID Field Binaural Basic/Delete/scratch? = False
SSID Field Binaural Basic/End Buffer = 
SSID Field Binaural Basic/GroupID = CT114
SSID Field Binaural Basic/No edit needed = False
SSID Field Binaural Basic/SessionID = CamdenTown1
SSID Field Binaural Basic/Start Buffer = 


0,62.74
0.00533333,62.69
0.0106667,62.68
0.016,62.78
0.0213333,62.78
0.0266667,62.77
0.032,62.74
0.0373333,62.78
0.0426667,62.79
0.048,62.76
0.0533333,62.69
0.0586667,62.64
0.064,62.51
0.0693333,62.55
0.0746667,62.59
0.08,62.54
0.0853333,62.51
0.0906667,62.5
0.096,62.64
0.101333,62.73
0.106667,62.78
0.112,62.8
0.117333,62.89
0.122667,62.9
0.128,62.81
0.133333,62.8
0.138667,62.8
0.144,62.79
0.149333,62.76
0.154667,62.66
0.16,62.67
0.165333,62.69
0.170667,62.82
0.176,62.78
0.181333,62.73
0.186667,62.69
0.192,62.67
0.197333,62.6
0.202667,62.52
0.208,62.48
0.213333,62.48
0.218667,62.45
0.224,62.41
0.229333,62.37
0.234667,62.49
0.24,62.45
0.245333,62.36
0.250667,62.31
0.256,62.33
0.261333,62.35
0.266667,62.31
0.272,62.26
0.277333,62.28
0.282667,62.27
0.288,62.2
0.293333,62.12
0.298667,62.03
0.304,62.02
0.309333,61.91
0.314667,61.81
0.32,61.76
0.325333,61.75
0.330667,61.66
0.336,61.56
0.341333,61.61
0.346667,61.58
0.352,61.99
0.357333,62.01
0.362667,61.93
0.368,61.88
0.373333,61.87
0.378667,61.78
0.384,61.94
0.389333,61.91
0.394667,61.88
0.4,61.87
0.405333,61.85
0.410667,61.78
0.416,61.75
0.421333,61.73
0.426667,61.67
0.432,61.6
0.437333,61.52
0.442667,61.52
0.448,61.53
0.453333,61.47
0.458667,61.49
0.464,61.47
0.469333,61.38
0.474667,61.35
0.48,61.33
0.485333,61.35
0.490667,61.27
0.496,61.23
0.501333,61.12
0.506667,61.05
0.512,61.02
0.517333,60.94
0.522667,60.92
0.528,60.91
0.533333,60.93
0.538667,60.91
0.544,60.83
0.549333,60.77
0.554667,60.74
0.56,60.77
0.565333,60.68
0.570667,60.62
0.576,60.59
0.581333,60.55
0.586667,60.56
0.592,60.53
0.597333,60.51
0.602667,60.49
0.608,60.46
0.613333,60.43
0.618667,60.48
0.624,60.43
0.629333,60.43
0.634667,60.4
0.64,60.41
0.645333,60.37
0.650667,60.35
0.656,60.27
0.661333,60.2
0.666667,60.13
0.672,60.1
0.677333,60.09
0.682667,60.06
0.688,60.09
0.693333,60.04
0.698667,60.03
0.704,60.23
0.709333,60.25
0.714667,60.17
0.72,60.17
0.725333,60.17
0.730667,60.15
0.736,60.22
0.741333,60.31
0.746667,60.22
0.752,60.3
0.757333,60.35
0.762667,60.29
0.768,60.23
0.773333,60.39
0.778667,60.46
0.784,60.52
0.789333,60.49
0.794667,60.85
0.8,60.91
0.805333,60.87
0.810667,60.94
0.816,60.91
0.821333,60.92
0.826667,60.94
0.832,60.85
0.837333,60.75
0.842667,60.78
0.848,60.89
0.853333,60.92
0.858667,60.89
0.864,60.95
0.869333,60.99
0.874667,60.97
0.88,60.97
0.885333,61.01
0.890667,61.08
0.896,61.2
0.901333,61.44
0.906667,61.51
0.912,61.67
0.917333,61.72
0.922667,61.78
0.928,61.88
0.933333,62.14
0.938667,62.23
0.944,62.28
0.949333,62.32
0.954667,62.39
0.96,62.47
0.965333,62.48
0.970667,62.64
0.976,62.71
0.981333,62.77
0.986667,62.93
0.992,63.07
0.997333,63.21
1.002667,63.27
1.008,63.31
1.013333,63.41
1.018667,63.38
1.024,63.4
1.029333,63.43
1.034667,63.37
1.04,63.33
1.045333,63.34
1.050667,63.34
1.056,63.32
1.061333,63.32
1.066667,63.31
1.072,63.41
1.077333,63.43
1.082667,63.39
1.088,63.4
1.093333,63.48
1.098667,63.49
1.104,63.52
1.109333,63.49
1.114667,63.47
1.12,63.45
1.125333,63.4
1.130667,63.47
1.136,63.42
1.141333,63.44
1.146667,63.46
1.152,63.43
1.157333,63.37
1.162667,63.48
1.168,63.47
1.173333,63.42
1.178667,63.46
1.184,63.43
1.189333,63.35
1.194667,63.3
1.2,63.36
1.205333,63.37
1.210667,63.28
1.216,63.21
1.221333,63.15
1.226667,63.12
1.232,63.12
1.237333,63.07
1.242667,63.03
1.248,63
1.253333,62.93
1.258667,62.98
1.264,63.11
1.269333,63.14
1.274667,63.11
1.28,63.05
1.285333,63.04
1.290667,63.03
1.296,63
1.301333,62.95
1.306667,62.89
1.312,62.82
1.317333,62.8
1.322667,62.8
1.328,62.79
1.333333,62.87
1.338667,62.84
1.344,62.88
1.349333,62.85
1.354667,62.73
1.36,62.63
1.365333,62.64
1.370667,62.7
1.376,62.65
1.381333,62.57
1.386667,62.53
1.392,62.54
1.397333,62.45
1.402667,62.47
1.408,62.42
1.413333,62.34
1.418667,62.32
1.424,62.27
1.429333,62.24
1.434667,62.22
1.44,62.29
1.445333,62.5
1.450667,62.54
1.456,62.62
1.461333,62.63
1.466667,62.55
1.472,62.62
1.477333,62.65
1.482667,62.63
1.488,62.62
1.493333,62.53
1.498667,62.52
1.504,62.46
1.509333,62.44
1.514667,62.4
1.52,62.38
1.525333,62.36
1.530667,62.33
1.536,62.37
1.541333,62.43
1.546667,62.39
1.552,62.3
1.557333,62.24
1.562667,62.23
1.568,62.16
1.573333,62.17
1.578667,62.13
1.584,62.02
1.589333,62.01
1.594667,61.94
1.6,61.9
1.605333,61.9
1.610667,61.93
1.616,61.89
1.621333,61.95
1.626667,61.96
1.632,61.98
1.637333,61.9
1.642667,61.89
1.648,61.85
1.653333,61.78
1.658667,61.8
1.664,61.69
1.669333,61.62
1.674667,61.64
1.68,61.63
1.685333,61.65
1.690667,61.68
1.696,61.74
1.701333,61.79
1.706667,61.83
1.712,61.84
1.717333,62.17
1.722667,62.26
1.728,62.3
1.733333,62.45
1.738667,62.49
1.744,62.55
1.749333,62.69
1.754667,62.75
1.76,62.85
1.765333,62.87
1.770667,62.81
1.776,62.85
1.781333,63.04
1.786667,63.17
1.792,63.17
1.797333,63.34
1.802667,63.36
1.808,63.51
1.813333,63.52
1.818667,63.63
1.824,63.68
1.829333,63.7
1.834667,63.69
1.84,63.68
1.845333,63.71
1.850667,63.74
1.856,63.86
1.861333,63.95
1.866667,63.97
1.872,64
1.877333,64.04
1.882667,64.04
1.888,64.12
1.893333,64.15
1.898667,64.07
1.904,64.07
1.909333,64.04
1.914667,64
1.92,64.05
1.925333,64.13
1.930667,64.12
1.936,64.09
1.941333,64.04
1.946667,64.01
1.952,64
1.957333,64.07
1.962667,64.02
1.968,64.12
1.973333,64.11
1.978667,64.11
1.984,64.15
1.989333,64.14
1.994667,64.07
2,64.09
2.005333,64.01
2.010667,63.98
2.016,63.89
2.021333,63.78
2.026667,63.69
2.032,63.64
2.037333,63.65
2.042667,63.58
2.048,63.56
2.053333,63.56
2.058667,63.52
2.064,63.45
2.069333,63.39
2.074667,63.32
2.08,63.28
2.085333,63.26
2.090667,63.19
2.096,63.15
2.101333,63.12
2.106667,63.14
2.112,63.15
2.117333,63.12
2.122667,63.11
2.128,63.06
2.133333,62.97
2.138667,62.92
2.144,62.89
2.149333,62.85
2.154667,62.82
2.16,62.78
2.165333,62.71
2.170667,62.63
2.176,62.54
2.181333,62.45
2.186667,62.44
2.192,62.55
2.197333,62.53
2.202667,62.47
2.208,62.5
2.213333,62.52
2.218667,62.48
2.224,62.44
2.229333,62.37
2.234667,62.4
2.24,62.34
2.245333,62.25
2.250667,62.2
2.256,62.16
2.261333,62.13
2.266667,62.03
2.272,61.97
2.277333,61.91
2.282667,61.84
2.288,61.82
2.293333,61.72
2.298667,61.65
2.304,61.56
2.309333,61.57
2.314667,61.57
2.32,61.49
2.325333,61.41
2.330667,61.37
2.336,61.29
2.341333,61.23
2.346667,61.15
2.352,61.08
2.357333,61.04
2.362667,60.96
2.368,60.85
2.373333,60.82
2.378667,60.82
2.384,61.13
2.389333,61.27
2.394667,61.27
2.4,61.24
2.405333,61.25
2.410667,61.25
2.416,61.23
2.421333,61.21
2.426667,61.15
2.432,61.15
2.437333,61.11
2.442667,61.11
2.448,61.04
2.453333,61.02
2.458667,61.02
2.464,61.05
2.469333,60.94
2.474667,60.86
2.48,60.85
2.485333,60.77
2.490667,60.78
2.496,60.76
2.501333,60.7
2.506667,60.69
2.512,60.74
2.517333,60.71
2.522667,60.77
2.528,60.75
2.533333,60.72
2.538667,60.67
2.544,60.61
2.549333,60.57
2.554667,60.59
2.56,60.62
2.565333,60.78
2.570667,60.86
2.576,60.83
2.581333,60.85
2.586667,60.89
2.592,60.91
2.597333,60.89
2.602667,60.89
2.608,60.94
2.613333,60.89
2.618667,60.8
2.624,60.84
2.629333,60.81
2.634667,60.76
2.64,60.71
2.645333,60.73
2.650667,61.05
2.656,61.32
2.661333,61.96
2.666667,63.23
2.672,64.58
2.677333,65.63
2.682667,65.88
2.688,65.87
2.693333,65.81
2.698667,65.84
2.704,65.85
2.709333,65.75
2.714667,65.68
2.72,65.62
2.725333,65.52
2.730667,65.5
2.736,65.5
2.741333,65.47
2.746667,65.38
2.752,65.38
2.757333,65.31
2.762667,65.24
2.768,65.22
2.773333,65.16
2.778667,65.12
2.784,65.13
2.789333,65.09
2.794667,65.01
2.8,64.96
2.805333,64.95
2.810667,64.86
2.816,64.78
2.821333,64.66
2.826667,64.53
2.832,64.43
2.837333,64.31
2.842667,64.2
2.848,64.08
2.853333,63.97
2.858667,63.89
2.864,63.81
2.869333,63.67
2.874667,63.54
2.88,63.49
2.885333,63.4
2.890667,63.28
2.896,63.16
2.901333,63.04
2.906667,62.95
2.912,62.9
2.917333,62.77
2.922667,62.74
2.928,62.66
2.933333,62.55
2.938667,62.44
2.944,62.33
2.949333,62.26
2.954667,62.2
2.96,62.18
2.965333,62.11
2.970667,61.99
2.976,61.89
2.981333,61.78
2.986667,61.74
2.992,61.69
2.997333,61.65
3.002667,61.61
3.008,61.58
3.013333,61.51
3.018667,61.47
3.024,61.49
3.029333,61.44
3.034667,61.38
3.04,61.3
3.045333,61.33
3.050667,61.36
3.056,61.39
3.061333,61.3
3.066667,61.22
3.072,61.14
3.077333,61.11
3.082667,61.05
3.088,61.04
3.093333,61.01
3.098667,60.94
3.104,60.92
3.109333,60.86
3.114667,60.79
3.12,60.72
3.125333,60.76
3.130667,60.77
3.136,60.76
3.141333,60.66
3.146667,60.61
3.152,60.59
3.157333,60.6
3.162667,60.59
3.168,60.51
3.173333,60.5
3.178667,60.46
3.184,60.46
3.189333,60.36
3.194667,60.35
3.2,60.3
3.205333,60.29
3.210667,60.22
3.216,60.16
3.221333,60.12
3.226667,60.16
3.232,60.1
3.237333,60.05
3.242667,59.99
3.248,59.95
3.253333,59.9
3.258667,59.87
3.264,59.85
3.269333,59.79
3.274667,59.73
3.28,59.71
3.285333,59.74
3.290667,59.78
3.296,59.77
3.301333,59.85
3.306667,59.93
3.312,59.92
3.317333,59.87
3.322667,59.83
3.328,59.76
3.333333,59.7
3.338667,59.67
3.344,59.68
3.349333,59.71
3.354667,59.7
3.36,59.64
3.365333,59.66
3.370667,59.69
3.376,59.65
3.381333,59.62
3.386667,59.53
3.392,59.55
3.397333,59.52
3.402667,59.48
3.408,59.44
3.413333,59.53
3.418667,59.6
3.424,59.61
3.429333,59.6
3.434667,59.59
3.44,59.6
3.445333,59.62
3.450667,59.56
3.456,59.59
3.461333,59.59
3.466667,59.5
3.472,59.5
3.477333,59.61
3.482667,59.64
3.488,59.64
3.493333,59.64
3.498667,59.72
3.504,59.7
3.509333,59.7
3.514667,59.68
3.52,59.62
3.525333,59.61
3.530667,59.58
3.536,59.52
3.541333,59.49
3.546667,59.44
3.552,59.37
3.557333,59.44
3.562667,59.36
3.568,59.45
3.573333,59.49
3.578667,59.55
3.584,59.56
3.589333,59.51
3.594667,59.49
3.6,59.47
3.605333,59.48
3.610667,59.48
3.616,59.48
3.621333,59.55
3.626667,59.55
3.632,59.49
3.637333,59.51
3.642667,59.53
3.648,59.58
3.653333,59.62
3.658667,59.62
3.664,59.64
3.669333,59.58
3.674667,59.68
3.68,59.67
3.685333,59.73
3.690667,59.71
3.696,59.75
3.701333,59.74
3.706667,59.76
3.712,59.78
3.717333,59.71
3.722667,59.65
3.728,59.66
3.733333,59.66
3.738667,59.66
3.744,59.65
3.749333,59.62
3.754667,59.85
3.76,59.97
3.765333,59.96
3.770667,60.06
3.776,60.09
3.781333,60.1
3.786667,60.1
3.792,60.07
3.797333,60.06
3.802667,60.02
3.808,59.95
3.813333,59.92
3.818667,59.94
3.824,59.9
3.829333,59.89
3.834667,59.87
3.84,59.83
3.845333,59.75
3.850667,59.76
3.856,59.75
3.861333,59.7
3.866667,59.74
3.872,59.71
3.877333,59.66
3.882667,59.59
3.888,59.54
3.893333,59.48
3.898667,59.41
3.904,59.36
3.909333,59.33
3.914667,59.28
3.92,59.23
3.925333,59.16
3.930667,59.18
3.936,59.15
3.941333,59.21
3.946667,59.26
3.952,59.3
3.957333,59.48
3.962667,59.5
3.968,59.54
3.973333,59.5
3.978667,59.49
3.984,59.43
3.989333,59.49
3.994667,59.42
4,59.42
4.005333,59.36
4.010667,59.35
4.016,59.36
4.021333,59.37
4.026667,59.42
4.032,59.41
4.037333,59.35
4.042667,59.36
4.048,59.38
4.053333,59.48
4.058667,59.46
4.064,59.55
4.069333,59.55
4.074667,59.51
4.08,59.59
4.085333,59.63
4.090667,59.69
4.096,59.68
4.101333,59.67
4.106667,59.62
4.112,59.6
4.117333,59.59
4.122667,59.58
4.128,59.52
4.133333,59.52
4.138667,59.52
4.144,59.49
4.149333,59.46
4.154667,59.43
4.16,59.45
4.165333,59.49
4.170667,59.43
4.176,59.37
4.181333,59.49
4.186667,59.51
4.192,59.52
4.197333,59.55
4.202667,59.5
4.208,59.48
4.213333,59.45
4.218667,59.42
4.224,59.42
4.229333,59.37
4.234667,59.3
4.24,59.27
4.245333,59.23
4.250667,59.16
4.256,59.14
4.261333,59.07
4.266667,59.09
4.272,59.06
4.277333,59.01
4.282667,59.05
4.288,59.07
4.293333,59.05
4.298667,59.02
4.304,59.16
4.309333,59.24
4.314667,59.2
4.32,59.16
4.325333,59.12
4.330667,59.18
4.336,59.15
4.341333,59.18
4.346667,59.22
4.352,59.18
4.357333,59.14
4.362667,59.16
4.368,59.1
4.373333,59.1
4.378667,59.15
4.384,59.17
4.389333,59.28
4.394667,59.3
4.4,59.3
4.405333,59.26
4.410667,59.17
4.416,59.12
4.421333,59.08
4.426667,59.09
4.432,59.09
4.437333,59.14
4.442667,59.14
4.448,59.08
4.453333,59.07
4.458667,59.12
4.464,59.12
4.469333,59.12
4.474667,59.18
4.48,59.22
4.485333,59.2
4.490667,59.2
4.496,59.23
4.501333,59.2
4.506667,59.17
4.512,59.2
4.517333,59.17
4.522667,59.18
4.528,59.2
4.533333,59.23
4.538667,59.19
4.544,59.15
4.549333,59.22
4.554667,59.23
4.56,59.53
4.565333,59.63
4.570667,59.73
4.576,59.7
4.581333,59.67
4.586667,59.62
4.592,59.62
4.597333,59.6
4.602667,59.61
4.608,59.61
4.613333,59.57
4.618667,59.6
4.624,59.64
4.629333,59.53
4.634667,59.47
4.64,59.44
4.645333,59.36
4.650667,59.39
4.656,59.38
4.661333,59.32
4.666667,59.29
4.672,59.37
4.677333,59.36
4.682667,59.42
4.688,59.38
4.693333,59.32
4.698667,59.26
4.704,59.2
4.709333,59.17
4.714667,59.21
4.72,59.2
4.725333,59.16
4.730667,59.19
4.736,59.17
4.741333,59.2
4.746667,59.22
4.752,59.2
4.757333,59.26
4.762667,59.19
4.768,59.2
4.773333,59.22
4.778667,59.23
4.784,59.31
4.789333,59.3
4.794667,59.38
4.8,59.36
4.805333,59.53
4.810667,59.64
4.816,59.67
4.821333,59.66
4.826667,59.63
4.832,59.57
4.837333,59.6
4.842667,59.6
4.848,59.58
4.853333,59.52
4.858667,59.51
4.864,59.54
4.869333,59.54
4.874667,59.47
4.88,59.36
4.885333,59.47
4.890667,59.51
4.896,59.47
4.901333,59.42
4.906667,59.48
4.912,59.58
4.917333,59.59
4.922667,59.54
4.928,59.56
4.933333,59.51
4.938667,59.48
4.944,59.45
4.949333,59.43
4.954667,59.38
4.96,59.28
4.965333,59.25
4.970667,59.27
4.976,59.24
4.981333,59.22
4.986667,59.19
4.992,59.16
4.997333,59.38
5.002667,59.35
5.008,59.35
5.013333,59.29
5.018667,59.41
5.024,59.37
5.029333,59.42
5.034667,59.38
5.04,59.31
5.045333,59.31
5.050667,59.32
5.056,59.39
5.061333,59.34
5.066667,59.33
5.072,59.37
5.077333,59.36
5.082667,59.44
5.088,59.42
5.093333,59.4
5.098667,59.35
5.104,59.36
5.109333,59.39
5.114667,59.48
5.12,59.58
5.125333,59.65
5.130667,59.68
5.136,59.65
5.141333,59.59
5.146667,59.57
5.152,59.63
5.157333,59.69
5.162667,59.66
5.168,59.7
5.173333,59.69
5.178667,59.72
5.184,59.77
5.189333,59.71
5.194667,59.69
5.2,59.66
5.205333,59.83
5.210667,59.79
5.216,59.83
5.221333,59.8
5.226667,59.77
5.232,59.74
5.237333,59.71
5.242667,59.72
5.248,59.67
5.253333,59.6
5.258667,59.61
5.264,59.57
5.269333,59.54
5.274667,59.47
5.28,59.53
5.285333,59.49
5.290667,59.54
5.296,59.48
5.301333,59.4
5.306667,59.35
5.312,59.42
5.317333,59.4
5.322667,59.4
5.328,59.34
5.333333,59.31
5.338667,59.32
5.344,59.27
5.349333,59.21
5.354667,59.17
5.36,59.22
5.365333,59.5
5.370667,59.51
5.376,59.65
5.381333,59.64
5.386667,59.66
5.392,59.65
5.397333,59.61
5.402667,59.72
5.408,59.68
5.413333,59.65
5.418667,59.74
5.424,59.72
5.429333,59.79
5.434667,59.76
5.44,59.77
5.445333,59.73
5.450667,59.75
5.456,59.74
5.461333,59.72
5.466667,59.62
5.472,59.63
5.477333,59.65
5.482667,59.57
5.488,59.52
5.493333,59.48
5.498667,59.45
5.504,59.46
5.509333,59.53
5.514667,59.48
5.52,59.45
5.525333,59.51
5.530667,59.49
5.536,59.54
5.541333,59.48
5.546667,59.5
5.552,59.48
5.557333,59.39
5.562667,59.33
5.568,59.33
5.573333,59.47
5.578667,59.48
5.584,59.49
5.589333,59.53
5.594667,59.57
5.6,59.56
5.605333,59.53
5.610667,59.58
5.616,59.58
5.621333,59.54
5.626667,59.49
5.632,59.55
5.637333,59.58
5.642667,59.57
5.648,59.51
5.653333,59.47
5.658667,59.43
5.664,59.45
5.669333,59.36
5.674667,59.4
5.68,59.53
5.685333,59.57
5.690667,59.58
5.696,59.5
5.701333,59.45
5.706667,59.45
5.712,59.43
5.717333,59.37
5.722667,59.31
5.728,59.32
5.733333,59.26
5.738667,59.22
5.744,59.11
5.749333,59.12
5.754667,59.1
5.76,58.98
5.765333,59
5.770667,58.98
5.776,58.92
5.781333,58.89
5.786667,58.84
5.792,58.84
5.797333,58.76
5.802667,58.69
5.808,58.6
5.813333,58.55
5.818667,58.48
5.824,58.53
5.829333,58.56
5.834667,58.53
5.84,58.5
5.845333,58.68
5.850667,58.81
5.856,58.75
5.861333,58.7
5.866667,58.77
5.872,58.74
5.877333,58.65
5.882667,58.65
5.888,58.61
5.893333,58.52
5.898667,58.44
5.904,58.44
5.909333,58.41
5.914667,58.4
5.92,58.32
5.925333,58.27
5.930667,58.22
5.936,58.16
5.941333,58.17
5.946667,58.14
5.952,58.09
5.957333,58.09
5.962667,58.04
5.968,57.99
5.973333,57.93
5.978667,57.89
5.984,58.01
5.989333,57.98
5.994667,57.94
6,57.92
6.005333,57.87
6.010667,57.8
6.016,57.76
6.021333,57.81
6.026667,57.75
6.032,57.68
6.037333,57.63
6.042667,57.65
6.048,57.7
6.053333,57.67
6.058667,57.6
6.064,57.53
6.069333,57.4
6.074667,57.39
6.08,57.39
6.085333,57.37
6.090667,57.33
6.096,57.28
6.101333,57.37
6.106667,57.39
6.112,57.5
6.117333,57.51
6.122667,57.47
6.128,57.48
6.133333,57.48
6.138667,57.45
6.144,57.41
6.149333,57.34
6.154667,57.31
6.16,57.36
6.165333,57.42
6.170667,57.55
6.176,57.53
6.181333,57.57
6.186667,57.49
6.192,57.5
6.197333,57.53
6.202667,57.46
6.208,57.4
6.213333,57.34
6.218667,57.34
6.224,57.4
6.229333,57.49
6.234667,57.49
6.24,57.59
6.245333,57.57
6.250667,57.54
6.256,57.49
6.261333,57.44
6.266667,57.39
6.272,57.35
6.277333,57.37
6.282667,57.3
6.288,57.25
6.293333,57.2
6.298667,57.13
6.304,57.06
6.309333,57.07
6.314667,57.16
6.32,57.19
6.325333,57.17
6.330667,57.16
6.336,57.19
6.341333,57.21
6.346667,57.15
6.352,57.18
6.357333,57.11
6.362667,57.16
6.368,57.13
6.373333,57.16
6.378667,57.15
6.384,57.16
6.389333,57.16
6.394667,57.21
6.4,57.2
6.405333,57.12
6.410667,57.06
6.416,57.07
6.421333,57.11
6.426667,57.03
6.432,56.97
6.437333,56.94
6.442667,56.84
6.448,56.74
6.453333,56.7
6.458667,56.72
6.464,56.77
6.469333,56.74
6.474667,56.68
6.48,56.67
6.485333,56.66
6.490667,56.63
6.496,56.83
6.501333,56.83
6.506667,56.79
6.512,56.85
6.517333,56.93
6.522667,57.4
6.528,57.54
6.533333,57.52
6.538667,57.49
6.544,57.43
6.549333,57.43
6.554667,57.38
6.56,57.32
6.565333,57.3
6.570667,57.28
6.576,57.24
6.581333,57.26
6.586667,57.25
6.592,57.22
6.597333,57.26
6.602667,57.27
6.608,57.32
6.613333,57.31
6.618667,57.36
6.624,57.46
6.629333,57.41
6.634667,57.36
6.64,57.47
6.645333,57.48
6.650667,57.44
6.656,57.44
6.661333,57.36
6.666667,57.29
6.672,57.3
6.677333,57.31
6.682667,57.36
6.688,57.36
6.693333,57.31
6.698667,57.32
6.704,57.3
6.709333,57.32
6.714667,57.3
6.72,58.89
6.725333,58.92
6.730667,58.85
6.736,58.79
6.741333,58.72
6.746667,58.77
6.752,58.72
6.757333,58.78
6.762667,58.79
6.768,58.81
6.773333,58.74
6.778667,58.72
6.784,58.66
6.789333,58.61
6.794667,58.77
6.8,58.79
6.805333,58.76
6.810667,58.65
6.816,58.56
6.821333,58.48
6.826667,58.46
6.832,59.05
6.837333,59.07
6.842667,59.11
6.848,59.08
6.853333,59
6.858667,58.92
6.864,58.92
6.869333,58.88
6.874667,58.82
6.88,58.8
6.885333,58.92
6.890667,58.92
6.896,58.89
6.901333,58.84
6.906667,58.82
6.912,58.78
6.917333,58.75
6.922667,58.76
6.928,58.76
6.933333,58.72
6.938667,58.97
6.944,59.05
6.949333,59.13
6.954667,59.13
6.96,59.06
6.965333,58.95
6.970667,58.89
6.976,58.8
6.981333,58.77
6.986667,58.72
6.992,58.64
6.997333,58.6
7.002667,58.57
7.008,58.58
7.013333,58.65
7.018667,58.59
7.024,58.53
7.029333,58.54
7.034667,58.56
7.04,58.54
7.045333,58.55
7.050667,58.54
7.056,58.5
7.061333,58.5
7.066667,58.72
7.072,59.01
7.077333,58.99
7.082667,58.97
7.088,58.98
7.093333,58.97
7.098667,58.98
7.104,59.04
7.109333,58.97
7.114667,58.89
7.12,58.88
7.125333,58.83
7.130667,58.77
7.136,58.73
7.141333,58.64
7.146667,58.56
7.152,58.49
7.157333,58.41
7.162667,58.37
7.168,58.3
7.173333,58.3
7.178667,58.26
7.184,58.23
7.189333,58.13
7.194667,58.1
7.2,58.11
7.205333,58.1
7.210667,58.04
7.216,58.05
7.221333,58.22
7.226667,58.49
7.232,58.57
7.237333,58.52
7.242667,58.43
7.248,58.4
7.253333,58.33
7.258667,58.3
7.264,58.27
7.269333,58.15
7.274667,58.08
7.28,58.04
7.285333,58.07
7.290667,58.03
7.296,58.06
7.301333,57.94
7.306667,57.86
7.312,57.82
7.317333,57.82
7.322667,57.79
7.328,57.7
7.333333,57.66
7.338667,57.61
7.344,57.55
7.349333,57.5
7.354667,57.57
7.36,57.49
7.365333,57.46
7.370667,57.36
7.376,57.34
7.381333,57.32
7.386667,57.29
7.392,57.22
7.397333,57.26
7.402667,57.23
7.408,57.23
7.413333,57.34
7.418667,57.33
7.424,57.28
7.429333,57.31
7.434667,57.26
7.44,57.21
7.445333,57.23
7.450667,57.21
7.456,57.25
7.461333,57.29
7.466667,57.43
7.472,57.41
7.477333,57.36
7.482667,57.26
7.488,57.18
7.493333,57.17
7.498667,57.2
7.504,57.21
7.509333,57.18
7.514667,57.17
7.52,57.18
7.525333,57.13
7.530667,57.1
7.536,57.04
7.541333,57
7.546667,56.97
7.552,56.95
7.557333,56.9
7.562667,56.85
7.568,56.79
7.573333,56.75
7.578667,56.73
7.584,56.69
7.589333,56.63
7.594667,56.62
7.6,56.65
7.605333,56.72
7.610667,56.84
7.616,56.84
7.621333,56.84
7.626667,56.76
7.632,56.71
7.637333,56.88
7.642667,56.82
7.648,56.81
7.653333,56.83
7.658667,56.79
7.664,56.76
7.669333,56.74
7.674667,56.76
7.68,56.86
7.685333,56.87
7.690667,56.91
7.696,56.9
7.701333,56.88
7.706667,56.84
7.712,56.86
7.717333,56.92
7.722667,56.94
7.728,56.86
7.733333,56.94
7.738667,56.91
7.744,56.85
7.749333,56.95
7.754667,56.92
7.76,56.99
7.765333,56.95
7.770667,56.94
7.776,56.98
7.781333,56.97
7.786667,57.04
7.792,57
7.797333,56.97
7.802667,56.94
7.808,56.91
7.813333,56.86
7.818667,56.83
7.824,56.89
7.829333,56.9
7.834667,56.92
7.84,56.97
7.845333,56.97
7.850667,57.06
7.856,56.99
7.861333,56.95
7.866667,56.93
7.872,56.92
7.877333,56.94
7.882667,56.97
7.888,56.97
7.893333,57
7.898667,57.02
7.904,57.06
7.909333,56.98
7.914667,56.91
7.92,56.86
7.925333,56.86
7.930667,56.89
7.936,56.81
7.941333,56.76
7.946667,56.66
7.952,56.62
7.957333,56.53
7.962667,56.49
7.968,56.42
7.973333,56.43
7.978667,56.35
7.984,56.27
7.989333,56.15
7.994667,56.1
8,56.1
8.005333,56.04
8.010667,56.05
8.016,56.04
8.021333,56.02
8.026667,55.94
8.032,56.02
8.037333,56.01
8.042667,56.01
8.048,55.97
8.053333,55.99
8.058667,55.99
8.064,56.16
8.069333,56.25
8.074667,56.39
8.08,56.42
8.085333,56.4
8.090667,56.4
8.096,56.41
8.101333,56.39
8.106667,56.4
8.112,56.33
8.117333,56.32
8.122667,56.32
8.128,56.22
8.133333,56.18
8.138667,56.12
8.144,56.25
8.149333,56.19
8.154667,56.15
8.16,56.1
8.165333,56.07
8.170667,56.09
8.176,56.12
8.181333,56.08
8.186667,56.07
8.192,56.07
8.197333,56
8.202667,55.99
8.208,55.98
8.213333,56.01
8.218667,55.99
8.224,56.03
8.229333,56
8.234667,56.02
8.24,56
8.245333,55.96
8.250667,55.99
8.256,55.98
8.261333,55.98
8.266667,55.93
8.272,55.84
8.277333,55.86
8.282667,55.83
8.288,55.76
8.293333,55.75
8.298667,55.77
8.304,55.84
8.309333,55.91
8.314667,55.9
8.32,55.87
8.325333,55.83
8.330667,55.81
8.336,55.75
8.341333,55.79
8.346667,55.77
8.352,55.73
8.357333,55.8
8.362667,55.84
8.368,55.9
8.373333,55.96
8.378667,55.96
8.384,55.97
8.389333,55.95
8.394667,56.01
8.4,56.14
8.405333,56.16
8.410667,56.13
8.416,56.08
8.421333,56.09
8.426667,56.07
8.432,56.02
8.437333,55.99
8.442667,55.96
8.448,55.89
8.453333,55.89
8.458667,55.86
8.464,55.8
8.469333,55.78
8.474667,55.71
8.48,55.64
8.485333,55.6
8.490667,55.52
8.496,55.48
8.501333,55.5
8.506667,55.44
8.512,55.38
8.517333,55.31
8.522667,55.22
8.528,55.17
8.533333,55.12
8.538667,55.1
8.544,55.09
8.549333,55.12
8.554667,55.12
8.56,55.13
8.565333,55.15
8.570667,55.13
8.576,55.08
8.581333,55.1
8.586667,55.24
8.592,55.23
8.597333,55.17
8.602667,55.16
8.608,55.15
8.613333,55.08
8.618667,55.02
8.624,54.98
8.629333,54.95
8.634667,54.92
8.64,54.88
8.645333,54.9
8.650667,55.06
8.656,54.99
8.661333,54.94
8.666667,54.93
8.672,54.89
8.677333,54.86
8.682667,54.82
8.688,54.78
8.693333,54.84
8.698667,54.89
8.704,54.88
8.709333,54.83
8.714667,54.74
8.72,54.75
8.725333,54.78
8.730667,54.7
8.736,54.66
8.741333,54.64
8.746667,54.71
8.752,54.66
8.757333,54.65
8.762667,54.6
8.768,54.56
8.773333,54.53
8.778667,54.49
8.784,54.47
8.789333,54.48
8.794667,54.47
8.8,54.42
8.805333,54.41
8.810667,54.34
8.816,54.37
8.821333,54.36
8.826667,54.35
8.832,54.36
8.837333,54.37
8.842667,54.32
8.848,54.35
8.853333,54.37
8.858667,54.37
8.864,54.47
8.869333,54.42
8.874667,54.47
8.88,54.5
8.885333,54.53
8.890667,54.6
8.896,54.87
8.901333,55.02
8.906667,55.31
8.912,55.47
8.917333,55.7
8.922667,55.92
8.928,56.04
8.933333,56.05
8.938667,56.14
8.944,56.09
8.949333,56.05
8.954667,56.07
8.96,56.1
8.965333,56.18
8.970667,56.19
8.976,56.15
8.981333,56.1
8.986667,56.11
8.992,56.11
8.997333,56.08
9.002667,56.09
9.008,56.13
9.013333,56.07
9.018667,56.08
9.024,56.06
9.029333,56.03
9.034667,56
9.04,56
9.045333,56.03
9.050667,56.04
9.056,56.08
9.061333,56.12
9.066667,56.08
9.072,56.05
9.077333,56.07
9.082667,56.28
9.088,56.54
9.093333,56.69
9.098667,56.88
9.104,56.95
9.109333,57.14
9.114667,57.05
9.12,57.05
9.125333,57.16
9.130667,57.2
9.136,57.34
9.141333,57.26
9.146667,57.18
9.152,57.12
9.157333,57.1
9.162667,57.1
9.168,57.2
9.173333,57.2
9.178667,57.12
9.184,57.04
9.189333,57.01
9.194667,57.01
9.2,56.99
9.205333,56.97
9.210667,56.91
9.216,56.88
9.221333,56.86
9.226667,56.87
9.232,56.91
9.237333,56.88
9.242667,56.88
9.248,56.89
9.253333,56.86
9.258667,56.88
9.264,56.95
9.269333,57.34
9.274667,57.57
9.28,57.99
9.285333,58.15
9.290667,58.18
9.296,58.31
9.301333,58.31
9.306667,58.4
9.312,58.54
9.317333,58.68
9.322667,58.75
9.328,58.81
9.333333,58.86
9.338667,58.91
9.344,58.87
9.349333,58.87
9.354667,58.92
9.36,58.96
9.365333,58.89
9.370667,58.81
9.376,58.74
9.381333,58.67
9.386667,58.66
9.392,58.59
9.397333,58.49
9.402667,58.37
9.408,58.32
9.413333,58.23
9.418667,58.16
9.424,58.07
9.429333,57.95
9.434667,57.86
9.44,57.85
9.445333,57.95
9.450667,58
9.456,58.14
9.461333,58.58
9.466667,58.87
9.472,58.83
9.477333,58.84
9.482667,58.94
9.488,58.93
9.493333,58.94
9.498667,58.91
9.504,58.9
9.509333,58.86
9.514667,58.75
9.52,58.66
9.525333,58.57
9.530667,58.5
9.536,58.38
9.541333,58.26
9.546667,58.14
9.552,58.01
9.557333,57.92
9.562667,57.87
9.568,57.83
9.573333,57.73
9.578667,57.64
9.584,57.57
9.589333,57.58
9.594667,57.51
9.6,57.41
9.605333,57.42
9.610667,57.49
9.616,57.53
9.621333,57.48
9.626667,57.48
9.632,57.5
9.637333,57.52
9.642667,57.74
9.648,57.97
9.653333,58.11
9.658667,58.02
9.664,57.99
9.669333,57.92
9.674667,57.83
9.68,57.74
9.685333,57.7
9.690667,57.62
9.696,57.58
9.701333,57.55
9.706667,57.47
9.712,57.42
9.717333,57.65
9.722667,57.53
9.728,57.44
9.733333,57.39
9.738667,57.33
9.744,57.23
9.749333,57.11
9.754667,57.06
9.76,56.95
9.765333,56.9
9.770667,56.85
9.776,56.82
9.781333,56.72
9.786667,56.68
9.792,56.6
9.797333,56.55
9.802667,56.52
9.808,56.44
9.813333,56.34
9.818667,56.34
9.824,56.36
9.829333,56.28
9.834667,56.27
9.84,56.41
9.845333,56.38
9.850667,56.33
9.856,56.3
9.861333,56.22
9.866667,56.22
9.872,56.24
9.877333,56.28
9.882667,56.27
9.888,56.26
9.893333,56.19
9.898667,56.14
9.904,56.07
9.909333,56.02
9.914667,56.01
9.92,55.94
9.925333,56.06
9.930667,56.07
9.936,56.03
9.941333,56
9.946667,55.98
9.952,55.99
9.957333,56
9.962667,55.95
9.968,55.97
9.973333,56.04
9.978667,56.12
9.984,56.14
9.989333,56.19
9.994667,56.26
10,56.29
10.005333,56.3
10.010667,56.28
10.016,56.24
10.021333,56.2
10.026667,56.14
10.032,56.17
10.037333,56.12
10.042667,56.07
10.048,56.07
10.053333,56.05
10.058667,56.09
10.064,56.15
10.069333,56.16
10.074667,56.06
10.08,56.05
10.085333,56.09
10.090667,56.11
10.096,56.12
10.101333,56.12
10.106667,56.09
10.112,56.07
10.117333,56.11
10.122667,56.13
10.128,56.13
10.133333,56.26
10.138667,56.29
10.144,56.27
10.149333,56.24
10.154667,56.24
10.16,56.23
10.165333,56.14
10.170667,56.12
10.176,56.16
10.181333,56.1
10.186667,56.12
10.192,56.08
10.197333,56.02
10.202667,55.93
10.208,55.88
10.213333,55.83
10.218667,55.85
10.224,55.82
10.229333,55.85
10.234667,55.8
10.24,55.73
10.245333,55.67
10.250667,55.61
10.256,55.61
10.261333,55.84
10.266667,55.9
10.272,55.86
10.277333,55.94
10.282667,55.86
10.288,55.81
10.293333,55.7
10.298667,55.64
10.304,55.66
10.309333,55.63
10.314667,55.59
10.32,55.57
10.325333,55.56
10.330667,55.51
10.336,55.48
10.341333,55.55
10.346667,55.59
10.352,55.55
10.357333,55.42
10.362667,55.37
10.368,55.31
10.373333,55.32
10.378667,55.27
10.384,55.25
10.389333,55.23
10.394667,55.17
10.4,55.32
10.405333,55.26
10.410667,55.25
10.416,55.2
10.421333,55.21
10.426667,55.22
10.432,55.27
10.437333,55.27
10.442667,55.27
10.448,55.24
10.453333,55.25
10.458667,55.18
10.464,55.11
10.469333,55.09
10.474667,55.11
10.48,55.11
10.485333,55.1
10.490667,55.1
10.496,55.1
10.501333,55.08
10.506667,55.13
10.512,55.12
10.517333,55.09
10.522667,55.03
10.528,54.98
10.533333,54.97
10.538667,54.93
10.544,54.95
10.549333,54.97
10.554667,54.92
10.56,54.88
10.565333,54.81
10.570667,54.84
10.576,54.86
10.581333,54.82
10.586667,54.87
10.592,54.88
10.597333,54.83
10.602667,54.79
10.608,54.79
10.613333,54.78
10.618667,54.8
10.624,54.8
10.629333,54.79
10.634667,54.79
10.64,54.96
10.645333,55.17
10.650667,55.19
10.656,55.34
10.661333,55.34
10.666667,55.27
10.672,55.25
10.677333,55.21
10.682667,55.17
10.688,55.18
10.693333,55.11
10.698667,54.99
10.704,54.91
10.709333,54.86
10.714667,54.76
10.72,54.76
10.725333,54.72
10.730667,54.68
10.736,54.73
10.741333,54.71
10.746667,54.74
10.752,54.66
10.757333,54.58
10.762667,54.54
10.768,54.57
10.773333,54.65
10.778667,54.6
10.784,54.56
10.789333,54.56
10.794667,54.55
10.8,54.6
10.805333,54.67
10.810667,54.61
10.816,54.58
10.821333,54.56
10.826667,54.5
10.832,54.4
10.837333,54.44
10.842667,54.38
10.848,54.41
10.853333,54.51
10.858667,54.59
10.864,54.76
10.869333,54.79
10.874667,54.79
10.88,54.82
10.885333,54.81
10.890667,54.73
10.896,54.71
10.901333,54.65
10.906667,54.58
10.912,54.55
10.917333,54.59
10.922667,54.58
10.928,54.56
10.933333,54.52
10.938667,54.52
10.944,54.52
10.949333,54.68
10.954667,54.89
10.96,54.96
10.965333,54.99
10.970667,54.93
10.976,54.87
10.981333,54.85
10.986667,54.85
10.992,54.97
10.997333,55
11.002667,54.91
11.008,54.92
11.013333,54.9
11.018667,54.91
11.024,54.93
11.029333,55.09
11.034667,55.09
11.04,55.08
11.045333,55.04
11.050667,55.01
11.056,55.05
11.061333,55.02
11.066667,54.97
11.072,54.9
11.077333,54.96
11.082667,54.94
11.088,54.96
11.093333,54.94
11.098667,54.92
11.104,54.91
11.109333,54.87
11.114667,54.8
11.12,54.77
11.125333,54.71
11.130667,54.63
11.136,54.61
11.141333,54.58
11.146667,54.57
11.152,54.54
11.157333,54.6
11.162667,54.96
11.168,55.14
11.173333,55.24
11.178667,55.34
11.184,55.31
11.189333,55.31
11.194667,55.54
11.2,55.72
11.205333,55.85
11.210667,55.81
11.216,55.81
11.221333,55.87
11.226667,55.85
11.232,55.79
11.237333,55.73
11.242667,55.67
11.248,55.64
11.253333,55.61
11.258667,55.52
11.264,55.54
11.269333,55.55
11.274667,55.54
11.28,55.61
11.285333,55.63
11.290667,55.71
11.296,55.61
11.301333,55.71
11.306667,55.76
11.312,55.77
11.317333,55.76
11.322667,55.7
11.328,55.62
11.333333,55.64
11.338667,55.58
11.344,55.49
11.349333,55.43
11.354667,55.4
11.36,55.38
11.365333,55.33
11.370667,55.24
11.376,55.25
11.381333,55.22
11.386667,55.33
11.392,55.29
11.397333,55.22
11.402667,55.15
11.408,55.1
11.413333,55.03
11.418667,54.96
11.424,54.86
11.429333,54.81
11.434667,54.81
11.44,54.78
11.445333,54.7
11.450667,54.85
11.456,54.82
11.461333,54.73
11.466667,54.78
11.472,54.72
11.477333,54.67
11.482667,54.66
11.488,54.9
11.493333,55.11
11.498667,55.11
11.504,55.09
11.509333,55.14
11.514667,55.14
11.52,55.14
11.525333,55.14
11.530667,55.16
11.536,55.16
11.541333,55.14
11.546667,55.16
11.552,55.09
11.557333,55.08
11.562667,55.34
11.568,55.28
11.573333,55.25
11.578667,55.19
11.584,55.14
11.589333,55.07
11.594667,55.06
11.6,55.03
11.605333,54.93
11.610667,54.87
11.616,54.85
11.621333,54.81
11.626667,54.88
11.632,54.86
11.637333,54.84
11.642667,54.78
11.648,54.71
11.653333,54.69
11.658667,54.66
11.664,54.66
11.669333,54.66
11.674667,54.58
11.68,54.48
11.685333,54.4
11.690667,54.36
11.696,54.33
11.701333,54.47
11.706667,54.42
11.712,54.35
11.717333,54.4
11.722667,54.37
11.728,54.37
11.733333,54.33
11.738667,54.35
11.744,54.33
11.749333,54.37
11.754667,54.38
11.76,54.44
11.765333,54.47
11.770667,54.45
11.776,54.43
11.781333,54.41
11.786667,54.35
11.792,54.33
11.797333,54.31
11.802667,54.27
11.808,54.2
11.813333,54.21
11.818667,54.19
11.824,54.1
11.829333,54.12
11.834667,54.08
11.84,54.03
11.845333,54.06
11.850667,54.17
11.856,54.21
11.861333,54.31
11.866667,54.41
11.872,54.46
11.877333,54.5
11.882667,54.53
11.888,54.58
11.893333,54.6
11.898667,54.64
11.904,54.58
11.909333,54.51
11.914667,54.45
11.92,54.38
11.925333,54.46
11.930667,56.36
11.936,56.35
11.941333,56.33
11.946667,56.29
11.952,56.26
11.957333,56.19
11.962667,56.25
11.968,56.18
11.973333,56.08
11.978667,56.01
11.984,55.96
11.989333,55.95
11.994667,55.98
12,55.91
12.005333,55.85
12.010667,55.87
12.016,55.81
12.021333,55.86
12.026667,55.94
12.032,55.99
12.037333,56
12.042667,55.98
12.048,55.95
12.053333,55.95
12.058667,55.91
12.064,55.9
12.069333,55.89
12.074667,55.81
12.08,55.73
12.085333,55.68
12.090667,55.59
12.096,55.48
12.101333,55.36
12.106667,55.34
12.112,55.35
12.117333,55.3
12.122667,55.21
12.128,55.09
12.133333,55.11
12.138667,55.03
12.144,54.95
12.149333,54.87
12.154667,54.8
12.16,54.78
12.165333,54.72
12.170667,54.68
12.176,54.65
12.181333,54.63
12.186667,54.64
12.192,54.58
12.197333,54.5
12.202667,54.5
12.208,54.44
12.213333,54.39
12.218667,54.3
12.224,54.37
12.229333,54.31
12.234667,54.21
12.24,54.2
12.245333,54.16
12.250667,54.12
12.256,54.08
12.261333,54.09
12.266667,54.09
12.272,54
12.277333,53.92
12.282667,53.89
12.288,53.87
12.293333,53.85
12.298667,53.81
12.304,53.75
12.309333,53.91
12.314667,53.94
12.32,53.93
12.325333,53.87
12.330667,53.86
12.336,53.91
12.341333,53.9
12.346667,53.84
12.352,53.79
12.357333,53.75
12.362667,53.68
12.368,53.63
12.373333,53.57
12.378667,53.67
12.384,53.6
12.389333,53.68
12.394667,53.64
12.4,53.55
12.405333,53.52
12.410667,53.45
12.416,53.49
12.421333,53.46
12.426667,53.43
12.432,53.58
12.437333,53.6
12.442667,53.62
12.448,53.58
12.453333,53.69
12.458667,53.83
12.464,53.84
12.469333,53.94
12.474667,54.05
12.48,54.01
12.485333,53.97
12.490667,54.07
12.496,54.09
12.501333,54.09
12.506667,54.02
12.512,54.08
12.517333,54.11
12.522667,54.04
12.528,53.99
12.533333,53.95
12.538667,54
12.544,54.06
12.549333,54.11
12.554667,54.04
12.56,54.01
12.565333,54.14
12.570667,54.26
12.576,54.43
12.581333,54.65
12.586667,54.91
12.592,55.15
12.597333,55.43
12.602667,55.51
12.608,55.67
12.613333,55.84
12.618667,56.1
12.624,56.29
12.629333,56.42
12.634667,56.57
12.64,56.55
12.645333,56.51
12.650667,56.43
12.656,56.39
12.661333,56.35
12.666667,56.38
12.672,56.49
12.677333,56.7
12.682667,56.82
12.688,57.12
12.693333,57.29
12.698667,57.37
12.704,57.35
12.709333,57.38
12.714667,57.36
12.72,57.3
12.725333,57.27
12.730667,57.27
12.736,57.25
12.741333,57.16
12.746667,57.12
12.752,57.08
12.757333,57.19
12.762667,57.18
12.768,57.12
12.773333,57.1
12.778667,57.05
12.784,56.99
12.789333,56.91
12.794667,56.8
12.8,56.67
12.805333,56.58
12.810667,56.51
12.816,56.44
12.821333,56.34
12.826667,56.24
12.832,56.18
12.837333,56.1
12.842667,56.04
12.848,55.99
12.853333,55.98
12.858667,55.93
12.864,55.94
12.869333,55.9
12.874667,55.92
12.88,55.91
12.885333,55.96
12.890667,55.91
12.896,55.86
12.901333,55.79
12.906667,55.8
12.912,55.74
12.917333,55.72
12.922667,55.67
12.928,55.7
12.933333,55.61
12.938667,55.56
12.944,55.55
12.949333,55.51
12.954667,55.49
12.96,55.53
12.965333,55.56
12.970667,55.56
12.976,55.64
12.981333,55.75
12.986667,55.79
12.992,55.75
12.997333,55.77
13.002667,55.77
13.008,55.74
13.013333,55.75
13.018667,55.79
13.024,55.86
13.029333,55.8
13.034667,55.78
13.04,55.76
13.045333,55.67
13.050667,55.6
13.056,55.58
13.061333,55.6
13.066667,55.64
13.072,55.68
13.077333,55.71
13.082667,55.75
13.088,55.74
13.093333,55.7
13.098667,55.61
13.104,55.68
13.109333,55.67
13.114667,55.64
13.12,55.68
13.125333,55.68
13.130667,55.67
13.136,55.83
13.141333,56.13
13.146667,56.15
13.152,56.17
13.157333,56.11
13.162667,56.12
13.168,56.14
13.173333,56.1
13.178667,56.01
13.184,56.02
13.189333,55.96
13.194667,56
13.2,55.96
13.205333,56.15
13.210667,56.54
13.216,56.98
13.221333,57.28
13.226667,57.86
13.232,58.42
13.237333,58.83
13.242667,59.08
13.248,59.24
13.253333,59.39
13.258667,59.49
13.264,59.62
13.269333,59.65
13.274667,59.59
13.28,59.58
13.285333,59.54
13.290667,59.47
13.296,59.38
13.301333,59.29
13.306667,59.2
13.312,59.13
13.317333,59.04
13.322667,58.95
13.328,58.85
13.333333,58.76
13.338667,58.65
13.344,58.58
13.349333,58.46
13.354667,58.32
13.36,58.21
13.365333,58.17
13.370667,58.08
13.376,57.96
13.381333,57.84
13.386667,57.72
13.392,57.59
13.397333,57.53
13.402667,57.49
13.408,57.37
13.413333,57.24
13.418667,57.18
13.424,57.1
13.429333,57.03
13.434667,57
13.44,56.9
13.445333,56.84
13.450667,56.77
13.456,56.67
13.461333,56.65
13.466667,56.57
13.472,56.51
13.477333,56.41
13.482667,56.32
13.488,56.28
13.493333,56.21
13.498667,56.15
13.504,56.12
13.509333,56.04
13.514667,56.02
13.52,55.95
13.525333,56.02
13.530667,56.06
13.536,56.11
13.541333,56.08
13.546667,56.05
13.552,56.01
13.557333,55.94
13.562667,55.9
13.568,55.89
13.573333,55.85
13.578667,55.91
13.584,56.12
13.589333,56.11
13.594667,56.05
13.6,56.12
13.605333,56.15
13.610667,56.08
13.616,56.01
13.621333,55.95
13.626667,55.92
13.632,55.95
13.637333,55.87
13.642667,55.95
13.648,55.92
13.653333,55.85
13.658667,55.83
13.664,55.78
13.669333,55.73
13.674667,55.7
13.68,55.68
13.685333,55.7
13.690667,55.67
13.696,55.67
13.701333,55.64
13.706667,55.67
13.712,55.74
13.717333,55.86
13.722667,55.96
13.728,55.99
13.733333,55.97
13.738667,56.19
13.744,56.21
13.749333,56.28
13.754667,56.39
13.76,56.35
13.765333,56.38
13.770667,56.41
13.776,56.41
13.781333,56.45
13.786667,56.39
13.792,56.34
13.797333,56.4
13.802667,56.35
13.808,56.34
13.813333,56.41
13.818667,56.44
13.824,56.49
13.829333,56.47
13.834667,56.52
13.84,56.56
13.845333,56.64
13.850667,56.7
13.856,56.7
13.861333,56.68
13.866667,56.59
13.872,56.68
13.877333,56.65
13.882667,56.65
13.888,56.66
13.893333,56.63
13.898667,56.56
13.904,56.63
13.909333,56.61
13.914667,56.64
13.92,56.58
13.925333,56.58
13.930667,56.56
13.936,56.47
13.941333,56.41
13.946667,56.38
13.952,56.39
13.957333,56.39
13.962667,56.37
13.968,56.43
13.973333,56.38
13.978667,56.42
13.984,56.39
13.989333,56.39
13.994667,56.36
14,56.36
14.005333,56.37
14.010667,56.48
14.016,56.44
14.021333,56.43
14.026667,56.49
14.032,56.53
14.037333,56.5
14.042667,56.51
14.048,56.55
14.053333,56.66
14.058667,56.79
14.064,56.86
14.069333,56.87
14.074667,56.85
14.08,56.85
14.085333,56.91
14.090667,56.86
14.096,56.84
14.101333,56.79
14.106667,56.8
14.112,56.78
14.117333,56.77
14.122667,56.72
14.128,56.65
14.133333,56.59
14.138667,56.54
14.144,56.52
14.149333,56.5
14.154667,56.48
14.16,56.65
14.165333,56.69
14.170667,56.82
14.176,56.9
14.181333,57.06
14.186667,57.2
14.192,57.23
14.197333,57.21
14.202667,57.2
14.208,57.12
14.213333,57.1
14.218667,57.05
14.224,57.02
14.229333,57.06
14.234667,57.08
14.24,57.18
14.245333,57.29
14.250667,57.36
14.256,57.44
14.261333,57.53
14.266667,57.55
14.272,57.58
14.277333,57.55
14.282667,57.55
14.288,57.48
14.293333,57.45
14.298667,57.45
14.304,57.44
14.309333,57.43
14.314667,57.37
14.32,57.38
14.325333,57.32
14.330667,57.24
14.336,57.16
14.341333,57.06
14.346667,57.03
14.352,57.01
14.357333,56.99
14.362667,56.94
14.368,56.87
14.373333,56.91
14.378667,56.88
14.384,56.85
14.389333,56.8
14.394667,56.82
14.4,56.76
14.405333,56.79
14.410667,56.74
14.416,56.67
14.421333,56.61
14.426667,56.63
14.432,56.61
14.437333,56.6
14.442667,56.57
14.448,56.56
14.453333,56.59
14.458667,56.52
14.464,56.49
14.469333,56.44
14.474667,56.38
14.48,56.37
14.485333,56.32
14.490667,56.34
14.496,56.32
14.501333,56.28
14.506667,56.2
14.512,56.2
14.517333,56.13
14.522667,56.24
14.528,56.19
14.533333,56.11
14.538667,56.03
14.544,55.96
14.549333,55.91
14.554667,55.9
14.56,55.83
14.565333,55.83
14.570667,55.86
14.576,55.87
14.581333,55.86
14.586667,55.99
14.592,56.04
14.597333,56.15
14.602667,56.18
14.608,56.29
14.613333,56.28
14.618667,56.22
14.624,56.2
14.629333,56.14
14.634667,56.06
14.64,55.97
14.645333,55.9
14.650667,55.82
14.656,55.79
14.661333,55.77
14.666667,55.69
14.672,55.59
14.677333,55.59
14.682667,55.53
14.688,55.46
14.693333,55.43
14.698667,55.36
14.704,55.32
14.709333,55.26
14.714667,55.18
14.72,55.12
14.725333,55.1
14.730667,55.06
14.736,55.01
14.741333,54.95
14.746667,54.88
14.752,54.83
14.757333,54.78
14.762667,54.77
14.768,54.72
14.773333,54.74
14.778667,54.74
14.784,54.74
14.789333,54.72
14.794667,54.73
14.8,54.75
14.805333,54.73
14.810667,54.84
14.816,54.92
14.821333,55.08
14.826667,55.23
14.832,55.27
14.837333,55.36
14.842667,55.37
14.848,55.37
14.853333,55.4
14.858667,55.34
14.864,55.29
14.869333,55.38
14.874667,55.42
14.88,55.38
14.885333,55.38
14.890667,55.37
14.896,55.34
14.901333,55.3
14.906667,55.35
14.912,55.3
14.917333,55.28
14.922667,55.3
14.928,55.29
14.933333,55.32
14.938667,55.3
14.944,55.22
14.949333,55.21
14.954667,55.16
14.96,55.13
14.965333,55.06
14.970667,54.99
14.976,55.01
14.981333,54.99
14.986667,54.94
14.992,54.92
14.997333,54.94
15.002667,54.88
15.008,54.84
15.013333,54.83
15.018667,54.8
15.024,54.81
15.029333,54.82
15.034667,54.8
15.04,54.82
15.045333,54.93
15.050667,55.07
15.056,55.1
15.061333,55.13
15.066667,55.18
15.072,55.25
15.077333,55.27
15.082667,55.22
15.088,55.24
15.093333,55.24
15.098667,55.28
15.104,55.27
15.109333,55.25
15.114667,55.29
15.12,55.28
15.125333,55.33
15.130667,55.29
15.136,55.32
15.141333,55.29
15.146667,55.25
15.152,55.27
15.157333,55.34
15.162667,55.33
15.168,55.3
15.173333,55.32
15.178667,55.3
15.184,55.34
15.189333,55.4
15.194667,55.39
15.2,55.45
15.205333,55.59
15.210667,55.67
15.216,55.74
15.221333,55.86
15.226667,56.01
15.232,56.02
15.237333,56.06
15.242667,56.23
15.248,56.26
15.253333,56.26
15.258667,56.32
15.264,56.37
15.269333,56.47
15.274667,56.45
15.28,56.43
15.285333,56.37
15.290667,56.34
15.296,56.37
15.301333,56.34
15.306667,56.34
15.312,56.28
15.317333,56.3
15.322667,56.23
15.328,56.15
15.333333,56.14
15.338667,56.11
15.344,56.03
15.349333,55.96
15.354667,55.89
15.36,55.8
15.365333,55.69
15.370667,55.65
15.376,55.57
15.381333,55.49
15.386667,55.47
15.392,55.36
15.397333,55.28
15.402667,55.27
15.408,55.22
15.413333,55.11
15.418667,55.03
15.424,54.92
15.429333,54.87
15.434667,54.85
15.44,54.78
15.445333,54.82
15.450667,54.94
15.456,54.95
15.461333,54.9
15.466667,54.88
15.472,54.86
15.477333,54.91
15.482667,54.89
15.488,54.98
15.493333,54.98
15.498667,55.12
15.504,55.15
15.509333,55.27
15.514667,55.42
15.52,55.4
15.525333,55.43
15.530667,55.46
15.536,55.41
15.541333,55.38
15.546667,55.32
15.552,55.27
15.557333,55.21
15.562667,55.19
15.568,55.13
15.573333,55.06
15.578667,55.01
15.584,54.97
15.589333,55.03
15.594667,55.05
15.6,55.02
15.605333,54.98
15.610667,54.95
15.616,54.94
15.621333,54.89
15.626667,54.93
15.632,54.97
15.637333,54.93
15.642667,54.89
15.648,54.87
15.653333,54.81
15.658667,54.76
15.664,54.68
15.669333,54.68
15.674667,54.7
15.68,54.64
15.685333,54.67
15.690667,54.6
15.696,54.56
15.701333,54.53
15.706667,54.5
15.712,54.53
15.717333,54.49
15.722667,54.48
15.728,54.48
15.733333,54.47
15.738667,54.4
15.744,54.33
15.749333,54.34
15.754667,54.28
15.76,54.2
15.765333,54.1
15.770667,54.07
15.776,54.05
15.781333,54.04
15.786667,54
15.792,53.95
15.797333,53.94
15.802667,53.91
15.808,53.85
15.813333,53.76
15.818667,53.72
15.824,53.66
15.829333,53.64
15.834667,53.66
15.84,53.64
15.845333,53.68
15.850667,53.75
15.856,53.7
15.861333,53.71
15.866667,53.77
15.872,53.93
15.877333,53.93
15.882667,53.93
15.888,54.01
15.893333,54.23
15.898667,54.36
15.904,54.42
15.909333,54.49
15.914667,54.59
15.92,54.54
15.925333,54.62
15.930667,54.63
15.936,54.72
15.941333,54.73
15.946667,54.77
15.952,54.74
15.957333,54.79
15.962667,54.71
15.968,54.71
15.973333,54.65
15.978667,54.62
15.984,54.62
15.989333,54.6
15.994667,54.63
16,54.63
16.005333,54.62
16.010667,54.59
16.016,54.57
16.021333,54.58
16.026667,54.65
16.032,54.65
16.037333,54.65
16.042667,54.65
16.048,54.59
16.053333,54.6
16.058667,54.57
16.064,54.51
16.069333,54.5
16.074667,54.54
16.08,54.7
16.085333,54.8
16.090667,54.82
16.096,54.85
16.101333,54.81
16.106667,54.77
16.112,54.79
16.117333,54.78
16.122667,54.75
16.128,54.68
16.133333,54.64
16.138667,54.64
16.144,54.58
16.149333,54.65
16.154667,54.57
16.16,54.55
16.165333,54.51
16.170667,54.62
16.176,54.57
16.181333,54.53
16.186667,54.48
16.192,54.47
16.197333,54.41
16.202667,54.41
16.208,54.34
16.213333,54.3
16.218667,54.27
16.224,54.27
16.229333,54.31
16.234667,54.3
16.24,54.23
16.245333,54.31
16.250667,54.32
16.256,54.26
16.261333,54.25
16.266667,54.15
16.272,54.1
16.277333,54.12
16.282667,54.07
16.288,54.06
16.293333,54.01
16.298667,53.96
16.304,53.94
16.309333,53.85
16.314667,53.82
16.32,53.81
16.325333,53.83
16.330667,53.74
16.336,53.66
16.341333,53.66
16.346667,53.65
16.352,53.7
16.357333,53.66
16.362667,53.65
16.368,53.65
16.373333,53.58
16.378667,53.66
16.384,53.63
16.389333,53.68
16.394667,53.7
16.4,53.7
16.405333,53.64
16.410667,53.57
16.416,53.52
16.421333,53.53
16.426667,53.51
16.432,53.47
16.437333,53.48
16.442667,53.47
16.448,53.49
16.453333,53.44
16.458667,53.43
16.464,53.42
16.469333,53.37
16.474667,53.42
16.48,53.42
16.485333,53.49
16.490667,53.43
16.496,53.45
16.501333,53.39
16.506667,53.47
16.512,53.47
16.517333,53.59
16.522667,53.6
16.528,53.63
16.533333,53.6
16.538667,53.59
16.544,53.6
16.549333,53.57
16.554667,53.61
16.56,53.54
16.565333,53.52
16.570667,53.52
16.576,53.53
16.581333,53.49
16.586667,53.44
16.592,53.45
16.597333,53.48
16.602667,53.48
16.608,53.53
16.613333,53.52
16.618667,53.45
16.624,53.42
16.629333,53.62
16.634667,53.56
16.64,53.52
16.645333,53.57
16.650667,53.62
16.656,53.66
16.661333,53.65
16.666667,53.58
16.672,53.57
16.677333,53.61
16.682667,53.6
16.688,53.57
16.693333,53.61
16.698667,53.53
16.704,53.57
16.709333,53.56
16.714667,53.58
16.72,53.6
16.725333,53.64
16.730667,53.71
16.736,53.72
16.741333,53.78
16.746667,53.75
16.752,53.75
16.757333,53.78
16.762667,53.78
16.768,53.76
16.773333,53.77
16.778667,53.78
16.784,53.73
16.789333,53.69
16.794667,53.65
16.8,53.67
16.805333,53.6
16.810667,53.61
16.816,53.65
16.821333,53.73
16.826667,53.77
16.832,53.72
16.837333,53.76
16.842667,53.81
16.848,53.92
16.853333,54.04
16.858667,54.07
16.864,54.12
16.869333,54.13
16.874667,54.23
16.88,54.4
16.885333,54.45
16.890667,54.57
16.896,54.64
16.901333,54.65
16.906667,54.81
16.912,54.87
16.917333,55.06
16.922667,55.13
16.928,55.08
16.933333,55
16.938667,54.94
16.944,55.02
16.949333,55
16.954667,54.99
16.96,55.02
16.965333,55.01
16.970667,54.98
16.976,54.94
16.981333,54.9
16.986667,54.97
16.992,55.08
16.997333,55.22
17.002667,55.2
17.008,55.21
17.013333,55.22
17.018667,55.23
17.024,55.2
17.029333,55.19
17.034667,55.2
17.04,55.16
17.045333,55.16
17.050667,55.09
17.056,55.01
17.061333,54.9
17.066667,54.82
17.072,54.73
17.077333,54.62
17.082667,54.58
17.088,54.57
17.093333,54.7
17.098667,54.88
17.104,55.01
17.109333,55.13
17.114667,55.18
17.12,55.39
17.125333,55.56
17.130667,55.8
17.136,55.88
17.141333,56.11
17.146667,56.3
17.152,56.39
17.157333,56.41
17.162667,56.34
17.168,56.25
17.173333,56.14
17.178667,56.11
17.184,56.07
17.189333,56.03
17.194667,55.98
17.2,55.94
17.205333,55.9
17.210667,55.84
17.216,55.76
17.221333,55.68
17.226667,55.64
17.232,55.65
17.237333,55.68
17.242667,55.79
17.248,55.82
17.253333,55.76
17.258667,55.73
17.264,55.71
17.269333,55.74
17.274667,55.74
17.28,55.75
17.285333,55.67
17.290667,55.64
17.296,55.58
17.301333,55.52
17.306667,55.51
17.312,55.47
17.317333,55.38
17.322667,55.31
17.328,55.24
17.333333,55.16
17.338667,55.08
17.344,55.03
17.349333,54.97
17.354667,54.95
17.36,54.88
17.365333,54.8
17.370667,54.72
17.376,54.74
17.381333,54.7
17.386667,54.65
17.392,54.62
17.397333,54.57
17.402667,54.51
17.408,54.42
17.413333,54.34
17.418667,54.25
17.424,54.17
17.429333,54.12
17.434667,54.05
17.44,54.02
17.445333,54.02
17.450667,53.99
17.456,53.99
17.461333,53.96
17.466667,53.92
17.472,54.06
17.477333,54.1
17.482667,54.03
17.488,54.05
17.493333,54.04
17.498667,54.07
17.504,54.03
17.509333,53.99
17.514667,53.98
17.52,53.97
17.525333,53.91
17.530667,53.97
17.536,53.91
17.541333,53.87
17.546667,53.86
17.552,53.86
17.557333,53.84
17.562667,53.87
17.568,53.94
17.573333,53.91
17.578667,53.88
17.584,53.92
17.589333,53.98
17.594667,54.11
17.6,54.18
17.605333,54.15
17.610667,54.21
17.616,54.22
17.621333,54.25
17.626667,54.23
17.632,54.2
17.637333,54.21
17.642667,54.17
17.648,54.17
17.653333,54.17
17.658667,54.16
17.664,54.12
17.669333,54.09
17.674667,54.17
17.68,54.15
17.685333,54.12
17.690667,54.13
17.696,54.09
17.701333,54.01
17.706667,53.98
17.712,53.96
17.717333,53.88
17.722667,53.81
17.728,53.8
17.733333,53.75
17.738667,53.79
17.744,53.81
17.749333,53.76
17.754667,53.67
17.76,53.66
17.765333,53.57
17.770667,53.55
17.776,53.54
17.781333,53.65
17.786667,53.69
17.792,53.7
17.797333,53.76
17.802667,53.79
17.808,53.73
17.813333,53.73
17.818667,53.76
17.824,53.77
17.829333,53.76
17.834667,53.75
17.84,53.8
17.845333,53.79
17.850667,53.85
17.856,53.85
17.861333,53.82
17.866667,53.8
17.872,53.83
17.877333,53.87
17.882667,53.79
17.888,53.88
17.893333,53.89
17.898667,53.86
17.904,53.98
17.909333,54
17.914667,54.06
17.92,54.01
17.925333,53.98
17.930667,54.02
17.936,54.09
17.941333,54.1
17.946667,54.17
17.952,54.14
17.957333,54.18
17.962667,54.22
17.968,54.22
17.973333,54.3
17.978667,54.26
17.984,54.28
17.989333,54.24
17.994667,54.23
18,54.23
18.005333,54.36
18.010667,54.42
18.016,54.47
18.021333,54.44
18.026667,54.4
18.032,54.41
18.037333,54.37
18.042667,54.34
18.048,54.35
18.053333,54.26
18.058667,54.2
18.064,54.19
18.069333,54.18
18.074667,54.11
18.08,54.08
18.085333,54.14
18.090667,54.17
18.096,54.13
18.101333,54.16
18.106667,54.13
18.112,54.19
18.117333,54.47
18.122667,54.75
18.128,54.94
18.133333,55.08
18.138667,55.06
18.144,55.12
18.149333,55.13
18.154667,55.14
18.16,55.08
18.165333,55.09
18.170667,55.19
18.176,55.2
18.181333,55.11
18.186667,55.07
18.192,55.06
18.197333,55.03
18.202667,55.03
18.208,55.03
18.213333,55.07
18.218667,55.03
18.224,55.06
18.229333,55.02
18.234667,55.05
18.24,55.07
18.245333,55.02
18.250667,55.12
18.256,55.42
18.261333,55.56
18.266667,55.71
18.272,55.93
18.277333,56.02
18.282667,56.09
18.288,56.31
18.293333,56.31
18.298667,56.3
18.304,56.31
18.309333,56.27
18.314667,56.22
18.32,56.16
18.325333,56.12
18.330667,56.08
18.336,56.02
18.341333,56.02
18.346667,55.92
18.352,55.89
18.357333,55.88
18.362667,55.88
18.368,55.83
18.373333,55.82
18.378667,55.84
18.384,55.81
18.389333,55.78
18.394667,55.69
18.4,55.6
18.405333,55.53
18.410667,55.49
18.416,55.39
18.421333,55.45
18.426667,55.51
18.432,55.68
18.437333,55.69
18.442667,55.71
18.448,55.9
18.453333,56.01
18.458667,56.05
18.464,56.12
18.469333,56.22
18.474667,56.28
18.48,56.27
18.485333,56.23
18.490667,56.19
18.496,56.25
18.501333,56.35
18.506667,56.37
18.512,56.35
18.517333,56.33
18.522667,56.31
18.528,56.47
18.533333,56.47
18.538667,56.54
18.544,56.63
18.549333,56.61
18.554667,56.6
18.56,56.61
18.565333,56.65
18.570667,56.65
18.576,56.76
18.581333,56.81
18.586667,56.79
18.592,56.79
18.597333,56.73
18.602667,56.78
18.608,56.81
18.613333,56.84
18.618667,56.81
18.624,56.77
18.629333,56.81
18.634667,56.9
18.64,56.94
18.645333,56.96
18.650667,57.16
18.656,57.41
18.661333,57.52
18.666667,57.56
18.672,57.48
18.677333,57.53
18.682667,57.49
18.688,57.47
18.693333,57.48
18.698667,57.59
18.704,57.63
18.709333,57.68
18.714667,57.69
18.72,57.73
18.725333,57.69
18.730667,57.78
18.736,57.84
18.741333,57.89
18.746667,57.98
18.752,58.09
18.757333,58.34
18.762667,58.43
18.768,58.49
18.773333,58.57
18.778667,58.66
18.784,58.69
18.789333,58.74
18.794667,58.8
18.8,58.77
18.805333,58.7
18.810667,58.71
18.816,58.64
18.821333,58.67
18.826667,58.65
18.832,58.64
18.837333,58.64
18.842667,58.56
18.848,58.52
18.853333,58.46
18.858667,58.45
18.864,58.34
18.869333,58.27
18.874667,58.17
18.88,58.12
18.885333,58.05
18.890667,57.99
18.896,57.91
18.901333,57.87
18.906667,57.86
18.912,57.8
18.917333,57.75
18.922667,57.62
18.928,57.54
18.933333,57.42
18.938667,57.31
18.944,57.24
18.949333,57.14
18.954667,57.08
18.96,56.98
18.965333,56.86
18.970667,56.88
18.976,56.93
18.981333,57.03
18.986667,57.1
18.992,57.23
18.997333,57.27
19.002667,57.32
19.008,57.35
19.013333,57.26
19.018667,57.18
19.024,57.11
19.029333,56.99
19.034667,56.9
19.04,56.78
19.045333,56.7
19.050667,56.7
19.056,56.73
19.061333,56.6
19.066667,56.49
19.072,56.45
19.077333,56.34
19.082667,56.25
19.088,56.24
19.093333,56.14
19.098667,56.09
19.104,56.03
19.109333,55.96
19.114667,55.93
19.12,55.89
19.125333,55.95
19.130667,55.88
19.136,55.81
19.141333,55.8
19.146667,55.84
19.152,55.89
19.157333,55.89
19.162667,55.83
19.168,55.78
19.173333,55.85
19.178667,55.77
19.184,55.7
19.189333,55.72
19.194667,55.74
19.2,55.67
19.205333,55.65
19.210667,55.6
19.216,55.58
19.221333,55.55
19.226667,55.51
19.232,55.52
19.237333,55.47
19.242667,55.5
19.248,55.47
19.253333,55.4
19.258667,55.33
19.264,55.26
19.269333,55.21
19.274667,55.14
19.28,55.07
19.285333,55
19.290667,54.96
19.296,54.93
19.301333,54.93
19.306667,54.87
19.312,54.93
19.317333,55.19
19.322667,55.46
19.328,55.64
19.333333,55.74
19.338667,55.76
19.344,55.68
19.349333,55.66
19.354667,55.6
19.36,55.56
19.365333,55.52
19.370667,55.44
19.376,55.39
19.381333,55.39
19.386667,55.39
19.392,55.39
19.397333,55.35
19.402667,55.29
19.408,55.33
19.413333,55.33
19.418667,55.37
19.424,55.36
19.429333,55.38
19.434667,55.43
19.44,55.46
19.445333,55.41
19.450667,55.53
19.456,55.5
19.461333,55.49
19.466667,55.52
19.472,55.65
19.477333,55.63
19.482667,55.56
19.488,55.59
19.493333,55.68
19.498667,55.67
19.504,55.59
19.509333,55.56
19.514667,55.53
19.52,55.5
19.525333,55.49
19.530667,55.5
19.536,55.46
19.541333,55.52
19.546667,55.5
19.552,55.49
19.557333,55.66
19.562667,55.71
19.568,55.73
19.573333,55.7
19.578667,55.7
19.584,55.66
19.589333,55.63
19.594667,55.6
19.6,55.56
19.605333,55.55
19.610667,55.48
19.616,55.49
19.621333,55.54
19.626667,55.48
19.632,55.46
19.637333,55.41
19.642667,55.46
19.648,55.4
19.653333,55.35
19.658667,55.32
19.664,55.37
19.669333,55.34
19.674667,55.47
19.68,55.46
19.685333,55.47
19.690667,55.51
19.696,55.5
19.701333,55.59
19.706667,55.58
19.712,55.55
19.717333,55.55
19.722667,55.52
19.728,55.44
19.733333,55.51
19.738667,55.48
19.744,55.44
19.749333,55.41
19.754667,55.38
19.76,55.4
19.765333,55.44
19.770667,55.7
19.776,55.72
19.781333,55.71
19.786667,55.66
19.792,55.73
19.797333,55.73
19.802667,55.83
19.808,55.92
19.813333,55.98
19.818667,56.02
19.824,56.07
19.829333,56.05
19.834667,56.15
19.84,56.22
19.845333,56.34
19.850667,56.36
19.856,56.39
19.861333,56.4
19.866667,56.43
19.872,56.36
19.877333,56.44
19.882667,56.43
19.888,56.39
19.893333,56.39
19.898667,56.38
19.904,56.4
19.909333,56.47
19.914667,56.56
19.92,56.53
19.925333,56.54
19.930667,56.55
19.936,56.56
19.941333,56.5
19.946667,56.46
19.952,56.59
19.957333,56.64
19.962667,56.64
19.968,56.71
19.973333,56.74
19.978667,56.75
19.984,56.77
19.989333,56.8
19.994667,56.79
20,56.83
20.005333,56.83
20.010667,56.78
20.016,56.74
20.021333,56.69
20.026667,56.78
20.032,56.7
20.037333,56.66
20.042667,56.56
20.048,56.49
20.053333,56.44
20.058667,56.37
20.064,56.37
20.069333,56.34
20.074667,56.39
20.08,56.44
20.085333,56.43
20.090667,56.55
20.096,56.62
20.101333,56.69
20.106667,56.8
20.112,56.85
20.117333,57.02
20.122667,57.09
20.128,57.18
20.133333,57.31
20.138667,57.3
20.144,57.42
20.149333,57.45
20.154667,57.55
20.16,57.64
20.165333,57.59
20.170667,57.64
20.176,57.61
20.181333,57.61
20.186667,57.57
20.192,57.57
20.197333,57.7
20.202667,57.75
20.208,57.78
20.213333,57.81
20.218667,57.8
20.224,57.82
20.229333,57.75
20.234667,57.66
20.24,57.64
20.245333,57.6
20.250667,57.56
20.256,57.49
20.261333,57.55
20.266667,57.65
20.272,57.59
20.277333,57.58
20.282667,57.57
20.288,57.56
20.293333,57.65
20.298667,57.67
20.304,57.65
20.309333,57.55
20.314667,57.48
20.32,57.45
20.325333,57.43
20.330667,57.41
20.336,57.4
20.341333,57.38
20.346667,57.43
20.352,57.47
20.357333,57.39
20.362667,57.34
20.368,57.34
20.373333,57.34
20.378667,57.34
20.384,57.36
20.389333,57.37
20.394667,57.37
20.4,57.4
20.405333,57.39
20.410667,57.39
20.416,57.41
20.421333,57.46
20.426667,57.49
20.432,57.51
20.437333,57.44
20.442667,57.39
20.448,57.31
20.453333,57.33
20.458667,57.28
20.464,57.36
20.469333,57.29
20.474667,57.26
20.48,57.26
20.485333,57.22
20.490667,57.19
20.496,57.11
20.501333,57.08
20.506667,57.02
20.512,57.04
20.517333,56.99
20.522667,57.02
20.528,57.01
20.533333,57.15
20.538667,57.18
20.544,57.19
20.549333,57.18
20.554667,57.14
20.56,57.12
20.565333,57.17
20.570667,57.16
20.576,57.19
20.581333,57.35
20.586667,57.34
20.592,57.38
20.597333,57.39
20.602667,57.37
20.608,57.37
20.613333,57.46
20.618667,57.39
20.624,57.38
20.629333,57.37
20.634667,57.33
20.64,57.3
20.645333,57.29
20.650667,57.3
20.656,57.25
20.661333,57.2
20.666667,57.17
20.672,57.18
20.677333,57.28
20.682667,57.29
20.688,57.25
20.693333,57.19
20.698667,57.21
20.704,57.26
20.709333,57.41
20.714667,57.47
20.72,57.58
20.725333,57.65
20.730667,57.7
20.736,57.83
20.741333,57.88
20.746667,57.86
20.752,57.82
20.757333,57.81
20.762667,57.79
20.768,57.92
20.773333,57.91
20.778667,57.96
20.784,57.94
20.789333,57.92
20.794667,57.94
20.8,57.97
20.805333,57.91
20.810667,57.88
20.816,57.91
20.821333,57.84
20.826667,57.78
20.832,57.77
20.837333,57.73
20.842667,57.64
20.848,57.59
20.853333,57.53
20.858667,57.46
20.864,57.35
20.869333,57.31
20.874667,57.27
20.88,57.21
20.885333,57.11
20.890667,57
20.896,56.92
20.901333,56.91
20.906667,56.87
20.912,56.77
20.917333,56.66
20.922667,56.63
20.928,56.56
20.933333,56.49
20.938667,56.43
20.944,56.37
20.949333,56.34
20.954667,56.29
20.96,56.32
20.965333,56.32
20.970667,56.31
20.976,56.3
20.981333,56.32
20.986667,56.34
20.992,56.35
20.997333,56.32
21.002667,56.3
21.008,56.28
21.013333,56.28
21.018667,56.29
21.024,56.27
21.029333,56.26
21.034667,56.26
21.04,56.16
21.045333,56.14
21.050667,56.09
21.056,56.09
21.061333,56.09
21.066667,56.03
21.072,56.05
21.077333,56.2
21.082667,56.18
21.088,56.14
21.093333,56.11
21.098667,56.15
21.104,56.23
21.109333,56.36
21.114667,56.36
21.12,56.4
21.125333,56.39
21.130667,56.37
21.136,56.3
21.141333,56.31
21.146667,56.25
21.152,56.24
21.157333,56.2
21.162667,56.2
21.168,56.2
21.173333,56.19
21.178667,56.22
21.184,56.25
21.189333,56.26
21.194667,56.23
21.2,56.21
21.205333,56.13
21.210667,56.12
21.216,56.05
21.221333,55.98
21.226667,55.93
21.232,55.84
21.237333,55.77
21.242667,55.71
21.248,55.72
21.253333,55.7
21.258667,55.67
21.264,55.64
21.269333,55.67
21.274667,55.59
21.28,55.55
21.285333,55.5
21.290667,55.43
21.296,55.4
21.301333,55.38
21.306667,55.34
21.312,55.28
21.317333,55.26
21.322667,55.28
21.328,55.36
21.333333,55.31
21.338667,55.33
21.344,55.25
21.349333,55.27
21.354667,55.41
21.36,55.44
21.365333,55.65
21.370667,55.7
21.376,55.82
21.381333,55.79
21.386667,55.83
21.392,55.83
21.397333,55.84
21.402667,55.9
21.408,55.87
21.413333,55.95
21.418667,55.95
21.424,56.04
21.429333,56.12
21.434667,56.12
21.44,56.12
21.445333,56.16
21.450667,56.15
21.456,56.18
21.461333,56.19
21.466667,56.18
21.472,56.16
21.477333,56.13
21.482667,56.11
21.488,56.13
21.493333,56.16
21.498667,56.15
21.504,56.14
21.509333,56.15
21.514667,56.1
21.52,56.11
21.525333,56.1
21.530667,56.03
21.536,55.96
21.541333,55.9
21.546667,55.84
21.552,55.82
21.557333,55.8
21.562667,55.82
21.568,55.8
21.573333,55.75
21.578667,55.76
21.584,55.83
21.589333,55.92
21.594667,55.85
21.6,55.8
21.605333,55.81
21.610667,55.76
21.616,55.7
21.621333,55.65
21.626667,55.62
21.632,55.63
21.637333,55.62
21.642667,55.54
21.648,55.57
21.653333,55.58
21.658667,55.64
21.664,55.59
21.669333,55.68
21.674667,55.69
21.68,55.71
21.685333,55.73
21.690667,55.72
21.696,55.73
21.701333,55.69
21.706667,55.75
21.712,55.73
21.717333,55.79
21.722667,55.7
21.728,55.68
21.733333,55.61
21.738667,55.72
21.744,55.76
21.749333,55.69
21.754667,55.63
21.76,55.57
21.765333,55.55
21.770667,55.57
21.776,55.58
21.781333,55.5
21.786667,55.48
21.792,55.42
21.797333,55.35
21.802667,55.28
21.808,55.17
21.813333,55.1
21.818667,55.06
21.824,55.06
21.829333,54.99
21.834667,54.94
21.84,54.88
21.845333,54.84
21.850667,54.84
21.856,54.82
21.861333,54.92
21.866667,54.87
21.872,54.84
21.877333,54.84
21.882667,54.9
21.888,54.91
21.893333,54.98
21.898667,55.06
21.904,55.04
21.909333,55.02
21.914667,55.04
21.92,55.1
21.925333,55.11
21.930667,55.25
21.936,55.31
21.941333,55.41
21.946667,55.53
21.952,55.59
21.957333,55.73
21.962667,55.81
21.968,55.98
21.973333,56.13
21.978667,56.25
21.984,56.37
21.989333,56.37
21.994667,56.41
22,56.46
22.005333,56.53
22.010667,56.53
22.016,56.63
22.021333,56.63
22.026667,56.57
22.032,56.56
22.037333,56.49
22.042667,56.42
22.048,56.46
22.053333,56.41
22.058667,57.88
22.064,58.47
22.069333,58.64
22.074667,58.61
22.08,58.63
22.085333,58.54
22.090667,58.48
22.096,58.39
22.101333,58.33
22.106667,58.23
22.112,58.15
22.117333,58.05
22.122667,58
22.128,57.92
22.133333,57.84
22.138667,57.75
22.144,57.68
22.149333,57.66
22.154667,57.58
22.16,57.45
22.165333,57.37
22.170667,57.3
22.176,57.2
22.181333,57.13
22.186667,56.99
22.192,56.97
22.197333,56.91
22.202667,56.95
22.208,56.89
22.213333,56.87
22.218667,56.83
22.224,56.81
22.229333,56.74
22.234667,56.68
22.24,56.59
22.245333,56.57
22.250667,56.59
22.256,56.56
22.261333,56.49
22.266667,56.47
22.272,56.39
22.277333,56.4
22.282667,56.37
22.288,56.4
22.293333,56.37
22.298667,56.31
22.304,56.28
22.309333,56.24
22.314667,56.16
22.32,56.06
22.325333,55.99
22.330667,55.91
22.336,55.85
22.341333,55.78
22.346667,55.73
22.352,55.76
22.357333,55.77
22.362667,55.74
22.368,55.68
22.373333,55.62
22.378667,55.7
22.384,55.75
22.389333,55.84
22.394667,55.85
22.4,55.97
22.405333,55.99
22.410667,55.93
22.416,55.91
22.421333,55.97
22.426667,55.96
22.432,55.98
22.437333,56.01
22.442667,56.04
22.448,56
22.453333,56.14
22.458667,56.19
22.464,56.21
22.469333,56.19
22.474667,56.24
22.48,56.26
22.485333,56.38
22.490667,56.36
22.496,56.46
22.501333,56.48
22.506667,56.56
22.512,56.56
22.517333,56.61
22.522667,56.6
22.528,56.53
22.533333,56.56
22.538667,56.54
22.544,56.49
22.549333,56.5
22.554667,56.62
22.56,56.64
22.565333,56.59
22.570667,56.56
22.576,56.52
22.581333,56.48
22.586667,56.48
22.592,56.4
22.597333,56.37
22.602667,56.31
22.608,56.28
22.613333,56.27
22.618667,56.25
22.624,56.28
22.629333,56.25
22.634667,56.16
22.64,56.15
22.645333,56.22
22.650667,56.24
22.656,56.2
22.661333,56.27
22.666667,56.36
22.672,56.35
22.677333,56.31
22.682667,56.36
22.688,56.34
22.693333,56.33
22.698667,56.32
22.704,56.25
22.709333,56.25
22.714667,56.27
22.72,56.35
22.725333,56.38
22.730667,56.3
22.736,56.25
22.741333,56.2
22.746667,56.15
22.752,56.09
22.757333,56.08
22.762667,56.04
22.768,55.98
22.773333,56.06
22.778667,56.03
22.784,56.21
22.789333,56.57
22.794667,56.82
22.8,56.96
22.805333,57.17
22.810667,57.38
22.816,57.47
22.821333,57.54
22.826667,57.63
22.832,57.63
22.837333,57.61
22.842667,57.62
22.848,57.7
22.853333,57.63
22.858667,57.56
22.864,57.49
22.869333,57.39
22.874667,57.31
22.88,57.24
22.885333,57.17
22.890667,57.07
22.896,56.95
22.901333,56.84
22.906667,56.79
22.912,56.71
22.917333,56.64
22.922667,56.54
22.928,56.47
22.933333,56.44
22.938667,56.36
22.944,56.33
22.949333,56.32
22.954667,56.26
22.96,56.25
22.965333,56.2
22.970667,56.14
22.976,56.09
22.981333,56.17
22.986667,56.14
22.992,56.15
22.997333,56.2
23.002667,56.19
23.008,56.19
23.013333,56.15
23.018667,56.12
23.024,56.08
23.029333,56.05
23.034667,56.03
23.04,55.96
23.045333,55.91
23.050667,55.88
23.056,55.87
23.061333,55.8
23.066667,55.74
23.072,55.7
23.077333,55.68
23.082667,55.63
23.088,55.6
23.093333,55.62
23.098667,55.66
23.104,55.65
23.109333,55.63
23.114667,55.58
23.12,55.56
23.125333,55.51
23.130667,55.56
23.136,55.54
23.141333,55.5
23.146667,55.53
23.152,55.46
23.157333,55.42
23.162667,55.42
23.168,55.51
23.173333,55.59
23.178667,55.75
23.184,55.94
23.189333,55.98
23.194667,55.99
23.2,56.08
23.205333,56.01
23.210667,55.98
23.216,56
23.221333,55.96
23.226667,55.97
23.232,55.93
23.237333,55.93
23.242667,55.89
23.248,55.86
23.253333,55.84
23.258667,55.79
23.264,55.89
23.269333,56.15
23.274667,56.28
23.28,56.32
23.285333,56.4
23.290667,56.53
23.296,56.72
23.301333,56.82
23.306667,56.84
23.312,56.87
23.317333,56.85
23.322667,56.85
23.328,57.01
23.333333,57.15
23.338667,57.21
23.344,57.16
23.349333,57.23
23.354667,57.3
23.36,57.26
23.365333,57.2
23.370667,57.11
23.376,57.06
23.381333,56.99
23.386667,56.99
23.392,57.04
23.397333,57.03
23.402667,57.06
23.408,57.03
23.413333,56.98
23.418667,56.91
23.424,56.9
23.429333,56.84
23.434667,56.74
23.44,56.69
23.445333,56.61
23.450667,56.54
23.456,56.5
23.461333,56.41
23.466667,56.38
23.472,56.34
23.477333,56.32
23.482667,56.3
23.488,56.29
23.493333,56.24
23.498667,56.21
23.504,56.22
23.509333,56.19
23.514667,56.19
23.52,56.21
23.525333,56.12
23.530667,56.07
23.536,56.03
23.541333,56.01
23.546667,55.98
23.552,55.91
23.557333,55.9
23.562667,55.91
23.568,55.91
23.573333,55.85
23.578667,55.81
23.584,55.86
23.589333,55.84
23.594667,55.92
23.6,55.92
23.605333,55.84
23.610667,55.82
23.616,55.76
23.621333,55.78
23.626667,55.79
23.632,55.77
23.637333,55.78
23.642667,55.77
23.648,55.84
23.653333,55.95
23.658667,55.93
23.664,55.92
23.669333,56.01
23.674667,56.08
23.68,56.12
23.685333,56.27
23.690667,56.24
23.696,56.23
23.701333,56.33
23.706667,56.31
23.712,56.38
23.717333,56.59
23.722667,56.67
23.728,56.8
23.733333,56.75
23.738667,56.86
23.744,56.84
23.749333,56.87
23.754667,56.94
23.76,56.99
23.765333,57.1
23.770667,57.12
23.776,57.14
23.781333,57.16
23.786667,57.12
23.792,57.12
23.797333,57.07
23.802667,57.02
23.808,57.03
23.813333,56.97
23.818667,56.89
23.824,56.84
23.829333,56.86
23.834667,56.84
23.84,56.86
23.845333,56.84
23.850667,56.81
23.856,56.77
23.861333,56.72
23.866667,56.76
23.872,56.86
23.877333,56.97
23.882667,56.96
23.888,57.07
23.893333,57.09
23.898667,57.14
23.904,57.11
23.909333,57.09
23.914667,57.04
23.92,57.05
23.925333,57.1
23.930667,57.15
23.936,57.12
23.941333,57.22
23.946667,57.23
23.952,57.33
23.957333,57.24
23.962667,57.21
23.968,57.2
23.973333,57.14
23.978667,57.18
23.984,57.15
23.989333,57.09
23.994667,57.05
24,57
24.005333,56.96
24.010667,56.96
24.016,56.94
24.021333,56.87
24.026667,56.88
24.032,56.86
24.037333,56.83
24.042667,56.74
24.048,56.65
24.053333,56.63
24.058667,56.52
24.064,56.44
24.069333,56.34
24.074667,56.32
24.08,56.29
24.085333,56.24
24.090667,56.23
24.096,56.22
24.101333,56.21
24.106667,56.31
24.112,56.3
24.117333,56.2
24.122667,56.2
24.128,56.18
24.133333,56.15
24.138667,56.17
24.144,56.13
24.149333,56.16
24.154667,56.27
24.16,56.31
24.165333,56.28
24.170667,56.24
24.176,56.28
24.181333,56.24
24.186667,56.23
24.192,56.22
24.197333,56.22
24.202667,56.21
24.208,56.27
24.213333,56.31
24.218667,56.31
24.224,56.35
24.229333,56.29
24.234667,56.29
24.24,56.24
24.245333,56.21
24.250667,56.16
24.256,56.19
24.261333,56.23
24.266667,56.27
24.272,56.28
24.277333,56.31
24.282667,56.37
24.288,56.36
24.293333,56.35
24.298667,56.32
24.304,56.29
24.309333,56.22
24.314667,56.16
24.32,56.15
24.325333,56.09
24.330667,56.04
24.336,55.95
24.341333,55.93
24.346667,55.86
24.352,55.81
24.357333,55.81
24.362667,55.81
24.368,55.79
24.373333,55.75
24.378667,55.68
24.384,55.68
24.389333,55.71
24.394667,55.77
24.4,55.75
24.405333,55.76
24.410667,55.72
24.416,55.75
24.421333,55.74
24.426667,55.75
24.432,55.76
24.437333,55.78
24.442667,55.76
24.448,55.75
24.453333,55.84
24.458667,55.82
24.464,55.81
24.469333,55.99
24.474667,56.08
24.48,56.09
24.485333,56.03
24.490667,56.01
24.496,55.95
24.501333,55.96
24.506667,55.94
24.512,55.89
24.517333,56.01
24.522667,56
24.528,55.96
24.533333,55.96
24.538667,55.93
24.544,55.92
24.549333,56.04
24.554667,55.98
24.56,56.02
24.565333,55.97
24.570667,55.94
24.576,55.95
24.581333,55.88
24.586667,55.92
24.592,55.96
24.597333,55.97
24.602667,55.93
24.608,56.01
24.613333,55.98
24.618667,55.89
24.624,55.85
24.629333,55.8
24.634667,55.79
24.64,55.83
24.645333,55.87
24.650667,55.89
24.656,55.86
24.661333,55.84
24.666667,55.85
24.672,55.88
24.677333,55.97
24.682667,55.95
24.688,56.07
24.693333,56.03
24.698667,55.98
24.704,56.01
24.709333,55.97
24.714667,55.98
24.72,55.98
24.725333,55.95
24.730667,55.87
24.736,55.91
24.741333,55.82
24.746667,55.81
24.752,55.86
24.757333,55.9
24.762667,55.91
24.768,55.96
24.773333,56
24.778667,56.02
24.784,56.11
24.789333,56.14
24.794667,56.19
24.8,56.18
24.805333,56.3
24.810667,56.38
24.816,56.46
24.821333,56.67
24.826667,56.76
24.832,56.84
24.837333,56.86
24.842667,57.05
24.848,57.15
24.853333,57.31
24.858667,57.36
24.864,57.56
24.869333,57.77
24.874667,57.86
24.88,57.9
24.885333,57.89
24.890667,57.88
24.896,57.98
24.901333,58.07
24.906667,58.16
24.912,58.26
24.917333,58.26
24.922667,58.31
24.928,58.31
24.933333,58.38
24.938667,58.37
24.944,58.36
24.949333,58.31
24.954667,58.33
24.96,58.33
24.965333,58.6
24.970667,58.57
24.976,58.55
24.981333,58.46
24.986667,58.37
24.992,58.28
24.997333,58.22
